Folder: midas

Note: README.md
# MIDAS (Multimodal Image Data Analysis Software)

__author__ :Ajith Pattammattel

A software suite to load and analysis imaging and spectrosocpy data collected at NSLS-II, Brookhaven National Laboratory

Datatype supported are tiff images or h5 from NSLS-II beamlines HXN, XFM, SRX and TES. This tool is tested for 3D stack data, either XANES or XRF maps. 

Major Dependencies: PyQt5, numpy, pandas, scipy, sklearn, h5py, pyqtgrapgh, matplotlib and tifffile

Note: README.rst
======
XMidas
======

.. image:: https://img.shields.io/travis/dmgav/xmidas.svg
        :target: https://travis-ci.org/dmgav/xmidas

.. image:: https://img.shields.io/pypi/v/xmidas.svg
        :target: https://pypi.python.org/pypi/xmidas


Multimodal Image Data Analysis Software

* Free software: 3-clause BSD license
* Documentation: (COMING SOON!) https://dmgav.github.io/xmidas.

Features
--------

* TODO

Note: test_energy.txt
7.092584000000000742e+03
7.095983000000000175e+03
7.099222999999999956e+03
7.102137999999999920e+03
7.103001000000000204e+03
7.104063000000000102e+03
7.104999000000000706e+03
7.106067999999999302e+03
7.107041999999999462e+03
7.108000000000000000e+03
7.109002000000000407e+03
7.110010000000000218e+03
7.111000000000000000e+03
7.111987000000000080e+03
7.113076999999999316e+03
7.114068999999999505e+03
7.115071999999999207e+03
7.116034999999999854e+03
7.117064000000000306e+03
7.118014999999999418e+03
7.119076000000000022e+03
7.120020000000000437e+03
7.121042000000000371e+03
7.122035000000000764e+03
7.123059999999999491e+03
7.124055000000000291e+03
7.125000000000000000e+03
7.126063000000000102e+03
7.127002000000000407e+03
7.128038000000000466e+03
7.129041000000000167e+03
7.130005000000000109e+03
7.131070000000000618e+03
7.132056000000000495e+03
7.133030999999999949e+03
7.134074999999999818e+03
7.135069999999999709e+03
7.136039999999999964e+03
7.137057000000000698e+03
7.138060000000000400e+03
7.139034999999999854e+03
7.140002000000000407e+03
7.141050000000000182e+03
7.143159999999999854e+03
7.145338999999999942e+03
7.147318000000000211e+03
7.149610999999999876e+03
7.151557999999999993e+03
7.153796999999999571e+03
7.155777999999999338e+03
7.157952000000000226e+03
7.160040999999999258e+03
7.161076999999999316e+03
7.164176000000000386e+03
7.167193000000000211e+03
7.170036999999999352e+03
7.173230000000000473e+03

File: test_ref_athena.nor
# XDI/1.0 Demeter/0.9.26
# Demeter.output_filetype: multicolumn normalized mu(E)
# Element.symbol: Fe
# Element.edge: K
# Column.1: energy eV
# Column.2: Fe_foilCal_007_Mar_17.avg
# Column.3: Pyrite_NMNH_recal_2_15_tr.avg
# Column.4: VIVIANITE_006_XANES_tr.avg
# Column.5: STRENGITE_XTL_007_XANES_tr.avg
# Column.6: Fe_SIDERITE_5_13_tr_cl.avg
# Column.7: SIDERITE_11_cl.avg
# Column.8: Fe_Foil_July17_1sc_tr_cl.avg
# Column.9: SteelNP_030_Jan18_1sc_cl
# Column.10: Fepowder_BN_July17_2sc_fl_cl.avg
#------------------------
#  "energy  Fe_foilCal_007_Mar_17.avg  Pyrite_NMNH_recal_2_15_tr.avg  VIVIANITE_006_XANES_tr.avg  STRENGITE_XTL_007_XANES_tr.avg  Fe_SIDERITE_5_13_tr_cl.avg  SIDERITE_11_cl.avg  Fe_Foil_July17_1sc_tr_cl.avg  SteelNP_030_Jan18_1sc_cl  Fepowder_BN_July17_2sc_fl
  7100       0.00375018   0.0013626   0.00223436   0.00169987   0.0012326   0.00224111   0.0035985   0.00460469   0.0065537
  7101       0.00137982   0.000252304   0.00207337   0.00219983   0.00193077   0.00288705   0.00420325   0.00553642   0.00790696
  7102       0.000630246   0.000798318   0.00323419   0.00252826   0.00265151   0.00359562   0.00502149   0.00649057   0.0091984
  7103      -0.00117268   0.00144604   0.00354658   0.00292979   0.00319918   0.00431095   0.00586442   0.00768258   0.0104792
  7104      -0.000695435   0.00269038   0.00387884   0.00319665   0.00418509   0.00506471   0.00692799   0.00916568   0.0125121
  7105      -0.00270632   0.00374206   0.00471523   0.00381023   0.00498957   0.0065646   0.00842904   0.0107366   0.0149842
  7106       0.00048269   0.00485947   0.00563437   0.00433485   0.00636854   0.00769599   0.0101166   0.0130485   0.0184617
  7107       0.00439692   0.00685727   0.00676406   0.00519728   0.00782413   0.00921962   0.0126443   0.0162697   0.0223018
  7108       0.00704567   0.00885961   0.0075702   0.00572716   0.00966912   0.0111394   0.016215   0.020023   0.028132
  7109       0.0183125   0.0113011   0.00945299   0.00701357   0.012089   0.013424   0.0217583   0.0267412   0.0374286
  7110       0.0379006   0.0158496   0.0115235   0.00813315   0.0157089   0.0168958   0.0320224   0.0392033   0.0542412
  7111       0.099046   0.0241646   0.015057   0.00966765   0.0240259   0.0234076   0.0601756   0.0710281   0.0993822
  7112       0.236661       0.0472407   0.0253914   0.0130546   0.0350948   0.0383237   0.149958       0.176403       0.225831
  7113       0.367823       0.0981269   0.0314224   0.0215636   0.0409484   0.0425056   0.244912       0.274292       0.342345
  7114       0.440675       0.121409       0.0372095   0.0436244   0.0441678   0.0452372   0.300394       0.337996       0.404112
  7115       0.496041       0.122167       0.0401448   0.0491949   0.0475306   0.0491208   0.343091       0.391054       0.449205
  7116       0.525561       0.118651       0.040315   0.0376806   0.0576944   0.0564104   0.365018       0.419414       0.473163
  7117       0.542476       0.16754       0.0463698   0.0286984   0.0845779   0.0791967   0.374389       0.432824       0.484378
  7118       0.573866       0.339473       0.0664838   0.0316781   0.144482       0.135952       0.400751       0.451543       0.513613
  7119       0.63898       0.552766       0.114378       0.0383089   0.240699       0.228301       0.462746       0.501048       0.574797
  7120       0.717917       0.695916       0.214054       0.048762   0.365756       0.338117       0.537115       0.565823       0.645221
  7121       0.785062       0.784955       0.374099       0.0672369   0.533779       0.489792       0.617391       0.632372       0.718981
  7122       0.844575       0.7877       0.576096       0.108033       0.778724       0.732375       0.693885       0.696907       0.78057
  7123       0.886061       0.795968       0.732488       0.186797        1.08512        1.06984       0.753203       0.753996       0.827143
  7124       0.913335       0.81973       0.887071       0.309162        1.37365        1.38881       0.800147       0.802482       0.864381
  7125       0.932866       0.847911        1.10468       0.44831        1.53781        1.54256       0.837858       0.850212       0.894059
  7126       0.949388       0.876029        1.31098       0.579472        1.56534        1.55951       0.871259       0.895716       0.91772
  7127       0.961332       0.896394        1.46493       0.727018        1.51138        1.5048       0.904771       0.93155       0.943618
  7128       0.974384       0.921876        1.47896       0.909466        1.40713        1.39805       0.94219       0.962442       0.966055
  7129       0.9924       0.940476        1.38019        1.1089        1.28069        1.26561       0.98597       0.990529        1.00054
  7130        1.00997       0.964758        1.31995        1.28749        1.17457        1.18163        1.02982        1.01151        1.03121
  7131        1.02358       0.991977        1.30496        1.40152        1.10487        1.12613        1.06139        1.02705        1.05055
  7132        1.03156        1.01964        1.28838        1.44057        1.07868        1.10674        1.06722        1.03019        1.05157
  7133        1.02422        1.04232        1.24195        1.43391        1.10186        1.14206        1.04621        1.01846        1.03328
  7134        1.01404        1.06417        1.1823        1.41128        1.16076        1.21248        1.01359        1.00601        1.00845
  7135       0.999411        1.08348        1.13587        1.39148        1.22045        1.2703       0.983666       0.996031       0.988514
  7136       0.992483        1.0956        1.11728        1.38299        1.25839        1.29647       0.963273       0.986876       0.971299
  7137       0.98637        1.10144        1.11489        1.38196        1.26885        1.29704       0.953633       0.977856       0.965586
  7138       0.986746        1.10383        1.11829        1.37664        1.25157        1.267       0.953234       0.974955       0.96421
  7139       0.990226        1.10322        1.11408        1.35753        1.20735        1.21581       0.960389       0.973319       0.971396